{
  "contained": [
    {
      "comment": "test",
      "created": "2023-03-22T11:14:55.752Z",
      "description": "e-Referral Appointment",
      "id": "appointment",
      "incomingReferral": [
        {
          "reference": "ReferralRequest/000049663888/_history/8"
        }
      ],
      "language": "en",
      "meta": {
        "profile": [
          "https://fhir.nhs.uk/STU3/StructureDefinition/eRS-Appointment-1",
          "https://fhir.hl7.org.uk/STU3/StructureDefinition/CareConnect-Appointment-1"
        ],
        "versionId": "1"
      },
      "participant": [
        {
          "actor": {
            "display": "Allergy Clinic",
            "identifier": {
              "system": "http://fhir.nhs.net/Id/ers-service",
              "value": "6709120"
            }
          },
          "status": "accepted"
        },
        {
          "actor": {
            "identifier": {
              "system": "http://fhir.nhs.net/Id/nhs-number",
              "value": "9727846793"
            }
          },
          "status": "accepted"
        }
      ],
      "reason": [
        {
          "coding": [
            {
              "code": "NO_SLOTS_AT_SERVICE",
              "system": "https://fhir.nhs.uk/STU3/CodeSystem/eRS-ReviewReason-1"
            }
          ]
        }
      ],
      "resourceType": "Appointment",
      "status": "proposed"
    },
    {
      "content": [
        {
          "attachment": {
            "contentType": "application/pdf",
            "creation": "2023-03-22",
            "extension": [
              {
                "url": "https://fhir.nhs.uk/STU3/StructureDefinition/Extension-eRS-AttachedBy-1",
                "valueReference": {
                  "identifier": {
                    "system": "http://fhir.nhs.net/Id/sds-user-id",
                    "value": "555263672102"
                  }
                }
              }
            ],
            "id": "62725",
            "size": 575537,
            "title": "VendorServicesDetails.pdf",
            "url": "Binary/att-8086826-62725"
          }
        }
      ],
      "description": "Example PDF",
      "id": "DocumentReference-62725",
      "indexed": "2023-03-23T09:57:05.345Z",
      "meta": {
        "profile": [
          "https://fhir.nhs.uk/STU3/StructureDefinition/eRS-DocumentReference-1"
        ]
      },
      "resourceType": "DocumentReference",
      "status": "current",
      "type": {
        "coding": [
          {
            "code": "REFERRER",
            "display": "Referrer",
            "system": "https://fhir.nhs.uk/STU3/CodeSystem/eRS-AttachmentType-1"
          }
        ]
      }
    },
    {
      "entry": [
        {
          "item": {
            "display": "Allergy Clinic",
            "identifier": {
              "system": "http://fhir.nhs.net/Id/ers-service",
              "value": "6709120"
            }
          }
        }
      ],
      "extension": [
        {
          "url": "https://fhir.nhs.uk/STU3/StructureDefinition/Extension-eRS-Shortlist-SearchCriteria-1",
          "valueReference": {
            "reference": "#serviceSearchCriteria"
          }
        }
      ],
      "id": "shortlist",
      "meta": {
        "profile": [
          "https://fhir.nhs.uk/STU3/StructureDefinition/eRS-Shortlist-List-1"
        ]
      },
      "mode": "snapshot",
      "resourceType": "List",
      "status": "current"
    },
    {
      "id": "serviceSearchCriteria",
      "meta": {
        "profile": [
          "https://fhir.nhs.uk/STU3/StructureDefinition/eRS-ServiceSearchCriteria-Parameters-1"
        ]
      },
      "parameter": [
        {
          "name": "priority",
          "valueCoding": {
            "code": "ROUTINE",
            "system": "https://fhir.nhs.uk/STU3/CodeSystem/eRS-Priority-1"
          }
        },
        {
          "name": "specialty",
          "valueCoding": {
            "code": "ALLERGY",
            "system": "https://int.api.service.nhs.uk/referrals/FHIR/STU3/CodeSystem/SPECIALTY"
          }
        },
        {
          "name": "clinicType",
          "valueCoding": {
            "code": "ALLERGY_1",
            "system": "https://fhir.nhs.uk/STU3/CodeSystem/eRS-ClinicType-1"
          }
        },
        {
          "name": "clinicalTerm",
          "valueCoding": {
            "code": "106190000",
            "system": "http://snomed.info/sct"
          }
        },
        {
          "name": "postcode",
          "valueString": "HX2 9TB"
        },
        {
          "name": "ageAndGenderAppropriate",
          "valueBoolean": true
        },
        {
          "name": "commissioningProvisioning",
          "valueCoding": {
            "code": "ALL_AVAILABLE_FOR_BOOKING",
            "system": "https://fhir.nhs.uk/STU3/CodeSystem/eRS-CommissioningProvisioning-1"
          }
        }
      ],
      "resourceType": "Parameters"
    }
  ],
  "extension": [
    {
      "url": "https://fhir.nhs.uk/STU3/StructureDefinition/Extension-eRS-Appointment-1",
      "valueReference": {
        "reference": "#appointment"
      }
    },
    {
      "url": "https://fhir.nhs.uk/STU3/StructureDefinition/Extension-eRS-Appointment-Reference-1",
      "valueReference": {
        "reference": "Appointment/948158386"
      }
    },
    {
      "url": "https://fhir.nhs.uk/STU3/StructureDefinition/Extension-eRS-ClinicalInfoFirstSubmitted-1",
      "valueDateTime": "2023-03-22T11:11:40.165Z"
    },
    {
      "url": "https://fhir.nhs.uk/STU3/StructureDefinition/Extension-eRS-Commissioning-Rule-Org-1",
      "valueIdentifier": {
        "system": "https://fhir.nhs.uk/Id/ods-organization-code",
        "value": "B84612"
      }
    },
    {
      "url": "https://fhir.nhs.uk/STU3/StructureDefinition/Extension-eRS-ReferralPriority-1",
      "valueCodeableConcept": {
        "coding": [
          {
            "code": "ROUTINE",
            "display": "Routine",
            "system": "https://fhir.nhs.uk/STU3/CodeSystem/eRS-Priority-1"
          }
        ]
      }
    },
    {
      "url": "https://fhir.nhs.uk/STU3/StructureDefinition/Extension-eRS-ReferralShortlist-1",
      "valueReference": {
        "reference": "#shortlist"
      }
    },
    {
      "extension": [
        {
          "url": "state",
          "valueCoding": {
            "code": "DEFERRED_TO_PROVIDER",
            "display": "Deferred To Provider",
            "system": "https://fhir.nhs.uk/STU3/CodeSystem/eRS-ReferralState-1"
          }
        },
        {
          "url": "reason",
          "valueCoding": {
            "code": "NO_SLOTS_AT_SERVICE",
            "system": "https://fhir.nhs.uk/STU3/CodeSystem/eRS-ReviewReason-1"
          }
        }
      ],
      "url": "https://fhir.nhs.uk/STU3/StructureDefinition/Extension-eRS-ReferralState-1"
    }
  ],
  "id": "000049663888",
  "intent": "plan",
  "meta": {
    "profile": [
      "https://fhir.nhs.uk/STU3/StructureDefinition/eRS-ReferralRequest-1"
    ],
    "versionId": "8"
  },
  "resourceType": "ReferralRequest",
  "specialty": {
    "coding": [
      {
        "code": "ALLERGY",
        "display": "Allergy",
        "system": "https://int.api.service.nhs.uk/referrals/FHIR/STU3/CodeSystem/SPECIALTY"
      }
    ]
  },
  "status": "active",
  "subject": {
    "identifier": {
      "system": "http://fhir.nhs.net/Id/nhs-number",
      "value": "9727846793"
    }
  },
  "supportingInfo": [
    {
      "reference": "#DocumentReference-62725"
    }
  ]
}
