{
  "contained": [
    {
      "content": [
        {
          "attachment": {
            "contentType": "application/pdf",
            "creation": "2021-06-11",
            "extension": [
              {
                "url": "https://fhir.nhs.uk/STU3/StructureDefinition/Extension-eRS-AttachedBy-1",
                "valueReference": {
                  "identifier": {
                    "system": "http://fhir.nhs.net/Id/sds-user-id",
                    "value": "021600556514"
                  }
                }
              }
            ],
            "id": "80000",
            "size": 6,
            "title": "referralletter.pdf",
            "url": "Binary/att-70000-80000"
          }
        }
      ],
      "description": "referralletter pdf",
      "id": "DocumentReference-80000",
      "indexed": "2021-06-11T12:09:09.459Z",
      "meta": {
        "profile": [
          "https://fhir.nhs.uk/STU3/StructureDefinition/eRS-DocumentReference-1"
        ]
      },
      "resourceType": "DocumentReference",
      "status": "current",
      "type": {
        "coding": [
          {
            "code": "REFERRER",
            "display": "Referrer",
            "system": "https://fhir.nhs.uk/STU3/CodeSystem/eRS-AttachmentType-1"
          }
        ]
      }
    },
    {
      "entry": [
        {
          "item": {
            "display": "Good Cardiology Business Service",
            "identifier": {
              "system": "http://fhir.nhs.net/Id/ers-service",
              "value": "11002"
            }
          }
        }
      ],
      "extension": [
        {
          "url": "https://fhir.nhs.uk/STU3/StructureDefinition/Extension-eRS-Shortlist-SearchCriteria-1",
          "valueReference": {
            "reference": "#serviceSearchCriteria"
          }
        }
      ],
      "id": "shortlist",
      "meta": {
        "profile": [
          "https://fhir.nhs.uk/STU3/StructureDefinition/eRS-Shortlist-List-1"
        ]
      },
      "mode": "snapshot",
      "resourceType": "List",
      "status": "current"
    },
    {
      "id": "serviceSearchCriteria",
      "meta": {
        "profile": [
          "https://fhir.nhs.uk/STU3/StructureDefinition/eRS-ServiceSearchCriteria-Parameters-1"
        ]
      },
      "parameter": [
        {
          "name": "priority",
          "valueCoding": {
            "code": "ROUTINE",
            "system": "https://fhir.nhs.uk/STU3/CodeSystem/eRS-Priority-1"
          }
        },
        {
          "name": "specialty",
          "valueCoding": {
            "code": "CARDIOLOGY",
            "system": "_baseUrl_/STU3/CodeSystem/SPECIALTY"
          }
        },
        {
          "name": "clinicType",
          "valueCoding": {
            "code": "HEART_FAILURE",
            "system": "https://fhir.nhs.uk/STU3/CodeSystem/eRS-ClinicType-1"
          }
        },
        {
          "name": "postcode",
          "valueString": "LS1 2TW"
        },
        {
          "name": "distanceLimit",
          "valueUnsignedInt": 123
        },
        {
          "name": "ageAndGenderAppropriate",
          "valueBoolean": true
        }
      ],
      "resourceType": "Parameters"
    }
  ],
  "extension": [
    {
      "url": "https://fhir.nhs.uk/STU3/StructureDefinition/Extension-eRS-ClinicalInfoFirstSubmitted-1",
      "valueDateTime": "2021-06-11T12:09:08.667Z"
    },
    {
      "url": "https://fhir.nhs.uk/STU3/StructureDefinition/Extension-eRS-Commissioning-Rule-Org-1",
      "valueIdentifier": {
        "system": "https://fhir.nhs.uk/Id/ods-organization-code",
        "value": "R69"
      }
    },
    {
      "url": "https://fhir.nhs.uk/STU3/StructureDefinition/Extension-eRS-ReferralPriority-1",
      "valueCodeableConcept": {
        "coding": [
          {
            "code": "ROUTINE",
            "display": "Routine",
            "system": "https://fhir.nhs.uk/STU3/CodeSystem/eRS-Priority-1"
          }
        ]
      }
    },
    {
      "url": "https://fhir.nhs.uk/STU3/StructureDefinition/Extension-eRS-ReferralShortlist-1",
      "valueReference": {
        "reference": "#shortlist"
      }
    },
    {
      "extension": [
        {
          "url": "state",
          "valueCoding": {
            "code": "NOT_BOOKED",
            "display": "Not Booked",
            "system": "https://fhir.nhs.uk/STU3/CodeSystem/eRS-ReferralState-1"
          }
        }
      ],
      "url": "https://fhir.nhs.uk/STU3/StructureDefinition/Extension-eRS-ReferralState-1"
    }
  ],
  "id": "000000070000",
  "intent": "plan",
  "meta": {
    "profile": [
      "https://fhir.nhs.uk/STU3/StructureDefinition/eRS-ReferralRequest-1"
    ],
    "versionId": "5"
  },
  "resourceType": "ReferralRequest",
  "status": "active",
  "subject": {
    "identifier": {
      "system": "http://fhir.nhs.net/Id/nhs-number",
      "value": "9912003888"
    }
  },
  "supportingInfo": [
    {
      "reference": "#DocumentReference-80000"
    }
  ]
}
